{"decision": {"triage": "ok", "reasons": ["all vitals within range"], "confidence": 0.5, "next_action": "log only"}, "fhir_bundle": {"resourceType": "Bundle", "id": "8c978f93-b948-45d2-9970-b187ba968259", "type": "collection", "timestamp": "2026-01-24T08:43:01.108422+00:00", "entry": [{"resource": {"resourceType": "Patient", "id": "patient-001", "active": true}}, {"resource": {"resourceType": "Device", "id": "device-ox-001", "status": "active"}}, {"resource": {"resourceType": "Observation", "id": "f7e9e3b6-ecd0-4b7e-9e49-1480f632ab2d", "status": "final", "code": {"coding": [{"system": "http://loinc.org", "code": "8867-4", "display": "Heart rate"}]}, "valueQuantity": {"value": 69, "unit": "bpm", "system": "http://unitsofmeasure.org"}, "effectiveDateTime": "2026-01-24T08:43:01.105775+00:00", "subject": {"reference": "Patient/patient-001"}, "device": {"reference": "Device/device-ox-001"}, "interpretation": [{"text": "normal"}]}}, {"resource": {"resourceType": "Observation", "id": "8952b3ca-93c7-42c3-98f6-36244d461e5d", "status": "final", "code": {"coding": [{"system": "http://loinc.org", "code": "2708-1", "display": "Oxygen saturation"}]}, "valueQuantity": {"value": 95, "unit": "%", "system": "http://unitsofmeasure.org"}, "effectiveDateTime": "2026-01-24T08:43:01.105775+00:00", "subject": {"reference": "Patient/patient-001"}, "device": {"reference": "Device/device-ox-001"}, "interpretation": [{"text": "normal"}]}}, {"resource": {"resourceType": "Observation", "id": "f14cca8e-3875-400a-8765-ee9cf2850193", "status": "final", "code": {"coding": [{"system": "http://loinc.org", "code": "8310-5", "display": "Body temperature"}]}, "valueQuantity": {"value": 36.8, "unit": "Cel", "system": "http://unitsofmeasure.org"}, "effectiveDateTime": "2026-01-24T08:43:01.105775+00:00", "subject": {"reference": "Patient/patient-001"}, "device": {"reference": "Device/device-ox-001"}, "interpretation": [{"text": "normal"}]}}, {"resource": {"resourceType": "Observation", "id": "92e33a30-b1a1-41a8-bf8f-86e388f1e304", "status": "final", "code": {"coding": [{"system": "http://loinc.org", "code": "9279-1", "display": "Respiratory rate"}]}, "valueQuantity": {"value": 13, "unit": "/min", "system": "http://unitsofmeasure.org"}, "effectiveDateTime": "2026-01-24T08:43:01.105775+00:00", "subject": {"reference": "Patient/patient-001"}, "device": {"reference": "Device/device-ox-001"}, "interpretation": [{"text": "normal"}]}}, {"resource": {"resourceType": "Task", "id": "8416f2b4-895a-40ac-8bb9-51d726045632", "status": "requested", "intent": "order", "priority": "urgent", "description": "Triage: ok", "reasonCode": [{"text": "all vitals within range"}], "authoredOn": "2026-01-24T08:43:01.105775+00:00", "for": {"reference": "Patient/patient-001"}}}]}}}