{"decision": {"triage": "ok", "reasons": ["all vitals within range"], "confidence": 0.5, "next_action": "log only"}, "fhir_bundle": {"resourceType": "Bundle", "id": "458e3763-ad2b-4414-83ed-f2b83db3d737", "type": "collection", "timestamp": "2026-01-24T09:06:21.464732+00:00", "entry": [{"resource": {"resourceType": "Patient", "id": "patient-001", "active": true}}, {"resource": {"resourceType": "Device", "id": "device-ox-001", "status": "active"}}, {"resource": {"resourceType": "Observation", "id": "39431115-7267-4e56-b3ee-cc885ee462f7", "status": "final", "code": {"coding": [{"system": "http://loinc.org", "code": "8867-4", "display": "Heart rate"}]}, "valueQuantity": {"value": 66, "unit": "bpm", "system": "http://unitsofmeasure.org"}, "effectiveDateTime": "2026-01-24T09:06:21.460620+00:00", "subject": {"reference": "Patient/patient-001"}, "device": {"reference": "Device/device-ox-001"}, "interpretation": [{"text": "normal"}]}}, {"resource": {"resourceType": "Observation", "id": "5a2c672f-6f82-49df-927c-1b576d3b62ca", "status": "final", "code": {"coding": [{"system": "http://loinc.org", "code": "2708-1", "display": "Oxygen saturation"}]}, "valueQuantity": {"value": 98, "unit": "%", "system": "http://unitsofmeasure.org"}, "effectiveDateTime": "2026-01-24T09:06:21.460620+00:00", "subject": {"reference": "Patient/patient-001"}, "device": {"reference": "Device/device-ox-001"}, "interpretation": [{"text": "normal"}]}}, {"resource": {"resourceType": "Observation", "id": "5f03612e-14a6-4c67-b1a0-6e0029f5b2a4", "status": "final", "code": {"coding": [{"system": "http://loinc.org", "code": "8310-5", "display": "Body temperature"}]}, "valueQuantity": {"value": 36.4, "unit": "Cel", "system": "http://unitsofmeasure.org"}, "effectiveDateTime": "2026-01-24T09:06:21.460620+00:00", "subject": {"reference": "Patient/patient-001"}, "device": {"reference": "Device/device-ox-001"}, "interpretation": [{"text": "normal"}]}}, {"resource": {"resourceType": "Observation", "id": "29cb1df8-8220-49e4-af05-cd9e38768755", "status": "final", "code": {"coding": [{"system": "http://loinc.org", "code": "9279-1", "display": "Respiratory rate"}]}, "valueQuantity": {"value": 14, "unit": "/min", "system": "http://unitsofmeasure.org"}, "effectiveDateTime": "2026-01-24T09:06:21.460620+00:00", "subject": {"reference": "Patient/patient-001"}, "device": {"reference": "Device/device-ox-001"}, "interpretation": [{"text": "normal"}]}}, {"resource": {"resourceType": "Task", "id": "b9cf313c-03e6-46fc-9e4a-1cbd4d5df5f6", "status": "requested", "intent": "order", "priority": "urgent", "description": "Triage: ok", "reasonCode": [{"text": "all vitals within range"}], "authoredOn": "2026-01-24T09:06:21.460620+00:00", "for": {"reference": "Patient/patient-001"}}}]}}}