{"decision": {"triage": "ok", "reasons": ["all vitals within range"], "confidence": 0.55, "next_action": "log only"}, "fhir_bundle": {"resourceType": "Bundle", "id": "6b39d6f8-f274-4c38-bafb-52cebae75afe", "type": "collection", "timestamp": "2026-01-24T08:14:44.347697+00:00", "entry": [{"resource": {"resourceType": "Patient", "id": "patient-001", "active": true}}, {"resource": {"resourceType": "Device", "id": "device-ox-001", "status": "active"}}, {"resource": {"resourceType": "Observation", "id": "106a6296-5554-4faf-8084-80fb642f36d5", "status": "final", "code": {"coding": [{"system": "http://loinc.org", "code": "8867-4", "display": "Heart rate"}]}, "valueQuantity": {"value": 85, "unit": "bpm"}, "effectiveDateTime": "2026-01-24T08:14:44.344300+00:00", "subject": {"reference": "Patient/patient-001"}, "device": {"reference": "Device/device-ox-001"}, "interpretation": [{"text": "normal"}]}}, {"resource": {"resourceType": "Observation", "id": "c4a2e912-39c0-4828-bd3a-a9a68e0cbb89", "status": "final", "code": {"coding": [{"system": "http://loinc.org", "code": "2708-6", "display": "SpO2"}]}, "valueQuantity": {"value": 96, "unit": "%"}, "effectiveDateTime": "2026-01-24T08:14:44.344300+00:00", "subject": {"reference": "Patient/patient-001"}, "device": {"reference": "Device/device-ox-001"}, "interpretation": [{"text": "normal"}]}}, {"resource": {"resourceType": "Observation", "id": "a804b340-8d63-4f2d-a093-83cac1d23528", "status": "final", "code": {"coding": [{"system": "http://loinc.org", "code": "8310-5", "display": "Body temperature"}]}, "valueQuantity": {"value": 36.5, "unit": "\u00b0C"}, "effectiveDateTime": "2026-01-24T08:14:44.344300+00:00", "subject": {"reference": "Patient/patient-001"}, "device": {"reference": "Device/device-ox-001"}, "interpretation": [{"text": "normal"}]}}, {"resource": {"resourceType": "Observation", "id": "95d6f502-d73e-4810-8821-b1d099d81cdd", "status": "final", "code": {"coding": [{"system": "http://loinc.org", "code": "9279-1", "display": "Respiratory rate"}]}, "valueQuantity": {"value": 13, "unit": "/min"}, "effectiveDateTime": "2026-01-24T08:14:44.344300+00:00", "subject": {"reference": "Patient/patient-001"}, "device": {"reference": "Device/device-ox-001"}, "interpretation": [{"text": "normal"}]}}, {"resource": {"resourceType": "Task", "id": "66a404fb-f3f9-40d2-9830-a74ff933a4f0", "status": "requested", "intent": "order", "priority": "urgent", "description": "Triage: ok", "reasonCode": [{"text": "all vitals within range"}], "authoredOn": "2026-01-24T08:14:44.344300+00:00", "for": {"reference": "Patient/patient-001"}}}]}}}