{"decision": {"triage": "ok", "reasons": ["all vitals within range"], "confidence": 0.5, "next_action": "log only"}, "fhir_bundle": {"resourceType": "Bundle", "id": "4991d46b-b6d5-44e6-b075-83a481aa5e35", "type": "collection", "timestamp": "2026-01-24T15:07:42.732658+00:00", "entry": [{"resource": {"resourceType": "Patient", "id": "patient-001", "active": true}}, {"resource": {"resourceType": "Device", "id": "device-ox-001", "status": "active"}}, {"resource": {"resourceType": "Observation", "id": "c9ae2a5b-b29b-455b-955c-fec4d1bf7079", "status": "final", "code": {"coding": [{"system": "http://loinc.org", "code": "8867-4", "display": "Heart rate"}]}, "valueQuantity": {"value": 63, "unit": "bpm", "system": "http://unitsofmeasure.org"}, "effectiveDateTime": "2026-01-24T15:07:42.728824+00:00", "subject": {"reference": "Patient/patient-001"}, "device": {"reference": "Device/device-ox-001"}, "interpretation": [{"text": "normal"}]}}, {"resource": {"resourceType": "Observation", "id": "f38aaa13-242b-4f4d-929a-3169fb0dfd2a", "status": "final", "code": {"coding": [{"system": "http://loinc.org", "code": "2708-1", "display": "Oxygen saturation"}]}, "valueQuantity": {"value": 98, "unit": "%", "system": "http://unitsofmeasure.org"}, "effectiveDateTime": "2026-01-24T15:07:42.728824+00:00", "subject": {"reference": "Patient/patient-001"}, "device": {"reference": "Device/device-ox-001"}, "interpretation": [{"text": "normal"}]}}, {"resource": {"resourceType": "Observation", "id": "6ae94510-0ba4-4b4c-a940-936c7a7e8f26", "status": "final", "code": {"coding": [{"system": "http://loinc.org", "code": "8310-5", "display": "Body temperature"}]}, "valueQuantity": {"value": 37.0, "unit": "Cel", "system": "http://unitsofmeasure.org"}, "effectiveDateTime": "2026-01-24T15:07:42.728824+00:00", "subject": {"reference": "Patient/patient-001"}, "device": {"reference": "Device/device-ox-001"}, "interpretation": [{"text": "normal"}]}}, {"resource": {"resourceType": "Observation", "id": "90f2ae0d-4d86-4e47-8423-c70ff86bcea6", "status": "final", "code": {"coding": [{"system": "http://loinc.org", "code": "9279-1", "display": "Respiratory rate"}]}, "valueQuantity": {"value": 15, "unit": "/min", "system": "http://unitsofmeasure.org"}, "effectiveDateTime": "2026-01-24T15:07:42.728824+00:00", "subject": {"reference": "Patient/patient-001"}, "device": {"reference": "Device/device-ox-001"}, "interpretation": [{"text": "normal"}]}}, {"resource": {"resourceType": "Task", "id": "ff10772a-9d84-42a7-9908-815327e70a64", "status": "requested", "intent": "order", "priority": "urgent", "description": "Triage: ok", "reasonCode": [{"text": "all vitals within range"}], "authoredOn": "2026-01-24T15:07:42.728824+00:00", "for": {"reference": "Patient/patient-001"}}}]}}}