{"decision": {"triage": "ok", "reasons": ["all vitals within range"], "confidence": 0.5, "next_action": "log only"}, "fhir_bundle": {"resourceType": "Bundle", "id": "ccad81cf-934c-489a-b0d8-0542e4754363", "type": "collection", "timestamp": "2026-01-24T15:24:22.439205+00:00", "entry": [{"resource": {"resourceType": "Patient", "id": "patient-001", "active": true}}, {"resource": {"resourceType": "Device", "id": "device-ox-001", "status": "active"}}, {"resource": {"resourceType": "Observation", "id": "bbae84fa-aade-4983-a1cb-4442b7e76809", "status": "final", "code": {"coding": [{"system": "http://loinc.org", "code": "8867-4", "display": "Heart rate"}]}, "valueQuantity": {"value": 86, "unit": "bpm", "system": "http://unitsofmeasure.org"}, "effectiveDateTime": "2026-01-24T15:24:22.434570+00:00", "subject": {"reference": "Patient/patient-001"}, "device": {"reference": "Device/device-ox-001"}, "interpretation": [{"text": "normal"}]}}, {"resource": {"resourceType": "Observation", "id": "f6173afc-e23c-4076-aae2-bb8078c541d6", "status": "final", "code": {"coding": [{"system": "http://loinc.org", "code": "2708-1", "display": "Oxygen saturation"}]}, "valueQuantity": {"value": 100, "unit": "%", "system": "http://unitsofmeasure.org"}, "effectiveDateTime": "2026-01-24T15:24:22.434570+00:00", "subject": {"reference": "Patient/patient-001"}, "device": {"reference": "Device/device-ox-001"}, "interpretation": [{"text": "normal"}]}}, {"resource": {"resourceType": "Observation", "id": "8f09099c-b529-4bff-8a5a-b57a59ba3505", "status": "final", "code": {"coding": [{"system": "http://loinc.org", "code": "8310-5", "display": "Body temperature"}]}, "valueQuantity": {"value": 37.0, "unit": "Cel", "system": "http://unitsofmeasure.org"}, "effectiveDateTime": "2026-01-24T15:24:22.434570+00:00", "subject": {"reference": "Patient/patient-001"}, "device": {"reference": "Device/device-ox-001"}, "interpretation": [{"text": "normal"}]}}, {"resource": {"resourceType": "Observation", "id": "c5693643-13fa-4c27-8ceb-f8760e204ef5", "status": "final", "code": {"coding": [{"system": "http://loinc.org", "code": "9279-1", "display": "Respiratory rate"}]}, "valueQuantity": {"value": 16, "unit": "/min", "system": "http://unitsofmeasure.org"}, "effectiveDateTime": "2026-01-24T15:24:22.434570+00:00", "subject": {"reference": "Patient/patient-001"}, "device": {"reference": "Device/device-ox-001"}, "interpretation": [{"text": "normal"}]}}, {"resource": {"resourceType": "Task", "id": "288f4424-b1a9-41a9-a2dd-95f3b675fcb9", "status": "requested", "intent": "order", "priority": "urgent", "description": "Triage: ok", "reasonCode": [{"text": "all vitals within range"}], "authoredOn": "2026-01-24T15:24:22.434570+00:00", "for": {"reference": "Patient/patient-001"}}}]}}