{"decision": {"triage": "ok", "reasons": ["all vitals within range"], "confidence": 0.5, "next_action": "log only"}, "fhir_bundle": {"resourceType": "Bundle", "id": "ef8fef4e-9af1-497d-9a93-a533a704ee2b", "type": "collection", "timestamp": "2026-01-24T19:55:02.129765+00:00", "entry": [{"resource": {"resourceType": "Patient", "id": "patient-001", "active": true}}, {"resource": {"resourceType": "Device", "id": "device-ox-001", "status": "active"}}, {"resource": {"resourceType": "Observation", "id": "1512e6b2-57a7-4f4e-ae71-07005587c519", "status": "final", "code": {"coding": [{"system": "http://loinc.org", "code": "8867-4", "display": "Heart rate"}]}, "valueQuantity": {"value": 76, "unit": "bpm", "system": "http://unitsofmeasure.org"}, "effectiveDateTime": "2026-01-24T19:55:02.126449+00:00", "subject": {"reference": "Patient/patient-001"}, "device": {"reference": "Device/device-ox-001"}, "interpretation": [{"text": "normal"}]}}, {"resource": {"resourceType": "Observation", "id": "84b69c55-5b3a-48d4-94c1-58f3f0b1dc21", "status": "final", "code": {"coding": [{"system": "http://loinc.org", "code": "2708-1", "display": "Oxygen saturation"}]}, "valueQuantity": {"value": 96, "unit": "%", "system": "http://unitsofmeasure.org"}, "effectiveDateTime": "2026-01-24T19:55:02.126449+00:00", "subject": {"reference": "Patient/patient-001"}, "device": {"reference": "Device/device-ox-001"}, "interpretation": [{"text": "normal"}]}}, {"resource": {"resourceType": "Observation", "id": "e89694b5-7089-48d1-9b7c-63729e1a2b7b", "status": "final", "code": {"coding": [{"system": "http://loinc.org", "code": "8310-5", "display": "Body temperature"}]}, "valueQuantity": {"value": 36.7, "unit": "Cel", "system": "http://unitsofmeasure.org"}, "effectiveDateTime": "2026-01-24T19:55:02.126449+00:00", "subject": {"reference": "Patient/patient-001"}, "device": {"reference": "Device/device-ox-001"}, "interpretation": [{"text": "normal"}]}}, {"resource": {"resourceType": "Observation", "id": "8ba31ea8-6b1e-455c-a67c-b233de13cf33", "status": "final", "code": {"coding": [{"system": "http://loinc.org", "code": "9279-1", "display": "Respiratory rate"}]}, "valueQuantity": {"value": 15, "unit": "/min", "system": "http://unitsofmeasure.org"}, "effectiveDateTime": "2026-01-24T19:55:02.126449+00:00", "subject": {"reference": "Patient/patient-001"}, "device": {"reference": "Device/device-ox-001"}, "interpretation": [{"text": "normal"}]}}, {"resource": {"resourceType": "Task", "id": "ee5a3dd9-ea6e-479c-bfbd-4b4e80cc771a", "status": "requested", "intent": "order", "priority": "urgent", "description": "Triage: ok", "reasonCode": [{"text": "all vitals within range"}], "authoredOn": "2026-01-24T19:55:02.126449+00:00", "for": {"reference": "Patient/patient-001"}}}]}}}