{"decision": {"triage": "ok", "reasons": ["all vitals within range"], "confidence": 0.55, "next_action": "log only"}, "fhir_bundle": {"resourceType": "Bundle", "id": "52d2f6eb-b42e-4160-bd03-42d1ee9dcc30", "type": "collection", "timestamp": "2026-01-24T08:14:30.183448+00:00", "entry": [{"resource": {"resourceType": "Patient", "id": "patient-001", "active": true}}, {"resource": {"resourceType": "Device", "id": "device-ox-001", "status": "active"}}, {"resource": {"resourceType": "Observation", "id": "faf0a4ee-1183-4041-b284-fb0353221b9a", "status": "final", "code": {"coding": [{"system": "http://loinc.org", "code": "8867-4", "display": "Heart rate"}]}, "valueQuantity": {"value": 75, "unit": "bpm"}, "effectiveDateTime": "2026-01-24T08:14:30.180255+00:00", "subject": {"reference": "Patient/patient-001"}, "device": {"reference": "Device/device-ox-001"}, "interpretation": [{"text": "normal"}]}}, {"resource": {"resourceType": "Observation", "id": "aae2aa60-aece-4d43-bd17-7907a56426ff", "status": "final", "code": {"coding": [{"system": "http://loinc.org", "code": "2708-6", "display": "SpO2"}]}, "valueQuantity": {"value": 96, "unit": "%"}, "effectiveDateTime": "2026-01-24T08:14:30.180255+00:00", "subject": {"reference": "Patient/patient-001"}, "device": {"reference": "Device/device-ox-001"}, "interpretation": [{"text": "normal"}]}}, {"resource": {"resourceType": "Observation", "id": "60bb66c9-cf95-4278-981e-1948c7f87215", "status": "final", "code": {"coding": [{"system": "http://loinc.org", "code": "8310-5", "display": "Body temperature"}]}, "valueQuantity": {"value": 37.0, "unit": "\u00b0C"}, "effectiveDateTime": "2026-01-24T08:14:30.180255+00:00", "subject": {"reference": "Patient/patient-001"}, "device": {"reference": "Device/device-ox-001"}, "interpretation": [{"text": "normal"}]}}, {"resource": {"resourceType": "Observation", "id": "24b91d60-1c4f-4807-9c6e-99e2ec25a66b", "status": "final", "code": {"coding": [{"system": "http://loinc.org", "code": "9279-1", "display": "Respiratory rate"}]}, "valueQuantity": {"value": 18, "unit": "/min"}, "effectiveDateTime": "2026-01-24T08:14:30.180255+00:00", "subject": {"reference": "Patient/patient-001"}, "device": {"reference": "Device/device-ox-001"}, "interpretation": [{"text": "normal"}]}}, {"resource": {"resourceType": "Task", "id": "6cf2d1ae-ea78-43d9-928e-c6030831b8d5", "status": "requested", "intent": "order", "priority": "urgent", "description": "Triage: ok", "reasonCode": [{"text": "all vitals within range"}], "authoredOn": "2026-01-24T08:14:30.180255+00:00", "for": {"reference": "Patient/patient-001"}}}]}}}